TrialNumber,prime_pos_1,prime_pos_2,prime_pos_3,prime_pos_4,prime_col_1,prime_col_2,prime_col_3,prime_col_4,prime_angle_1,prime_angle_2,prime_angle_3,prime_angle_4,curr_task,sequence,target_angle_colour,target_angle_orientation,condition,subject,block_type,ran,order,response,rt
1,135,45,315,225,245.5,318.6,44.2,186.9,344.5,271.6,110.30000000000001,25.900000000000002,colour,switch,245.0,344.0,experiment_1,012,mixed,1.0,0.0,247.0,2.081042
2,45,315,135,225,183.5,97.10000000000001,16.6,302.90000000000003,111.7,270.5,57.300000000000004,208.3,orientation,switch,183.0,111.0,experiment_1,012,mixed,1.0,1.0,86.71075732150818,2.7263184
3,135,315,45,225,275.2,203.3,159.9,90.2,49.7,266.5,345.5,145.20000000000002,orientation,repetition,275.0,49.0,experiment_1,012,mixed,1.0,2.0,44.747597317710856,3.2413723
4,225,45,135,315,60.300000000000004,107.5,198.4,294.3,305.8,88.5,187.0,12.200000000000001,orientation,repetition,60.0,305.0,experiment_1,012,mixed,1.0,3.0,291.35283959470837,4.264003
5,225,315,135,45,171.9,355.6,315.5,114.30000000000001,56.1,357.1,133.8,256.90000000000003,orientation,repetition,171.0,56.0,experiment_1,012,mixed,1.0,4.0,67.96377305985456,3.5178812
6,225,135,315,45,310.1,119.9,211.20000000000002,38.800000000000004,218.0,100.10000000000001,35.0,163.70000000000002,colour,switch,310.0,218.0,experiment_1,012,mixed,1.0,5.0,309.0,2.4010377
7,315,45,225,135,248.5,352.0,158.0,66.7,286.2,102.80000000000001,51.400000000000006,203.5,orientation,switch,248.0,286.0,experiment_1,012,mixed,1.0,6.0,286.94922423382144,4.864946
8,135,315,225,45,192.8,17.1,255.0,326.0,116.9,21.900000000000002,301.1,219.3,orientation,repetition,192.0,116.0,experiment_1,012,mixed,1.0,7.0,113.98203050844293,2.3984587
9,315,45,135,225,32.5,90.0,141.6,238.70000000000002,219.60000000000002,125.2,274.7,351.8,colour,switch,32.0,219.0,experiment_1,012,mixed,1.0,8.0,83.0,1.7099833
10,135,45,315,225,295.5,34.0,92.10000000000001,341.20000000000005,86.0,216.70000000000002,164.60000000000002,12.0,colour,repetition,295.0,86.0,experiment_1,012,mixed,1.0,9.0,304.0,1.5938714
11,315,225,45,135,331.40000000000003,52.300000000000004,257.90000000000003,112.7,99.2,161.70000000000002,12.100000000000001,278.3,orientation,switch,331.0,99.0,experiment_1,012,mixed,1.0,10.0,120.10130456559969,2.3064766
12,315,225,135,45,50.2,168.10000000000002,300.40000000000003,353.3,147.70000000000002,242.3,71.5,293.7,orientation,repetition,50.0,147.0,experiment_1,012,mixed,1.0,11.0,142.50000920696505,2.5344641
13,315,225,135,45,167.3,303.8,112.10000000000001,358.8,259.1,156.20000000000002,93.7,218.70000000000002,orientation,repetition,167.0,259.0,experiment_1,012,mixed,1.0,12.0,294.051623593886,2.9768665
14,315,225,45,135,336.90000000000003,283.3,221.8,69.9,187.8,104.30000000000001,257.90000000000003,22.0,orientation,repetition,336.0,187.0,experiment_1,012,mixed,1.0,13.0,260.8583597764751,2.490196
15,315,135,45,225,337.1,111.5,161.10000000000002,286.2,343.1,97.5,286.0,208.4,colour,switch,337.0,343.0,experiment_1,012,mixed,1.0,14.0,313.0,1.7586964
16,135,45,225,315,254.0,76.4,177.8,294.3,219.70000000000002,78.10000000000001,348.5,286.8,orientation,switch,254.0,219.0,experiment_1,012,mixed,1.0,15.0,126.02737338510362,3.040607
17,45,135,315,225,77.5,345.8,129.6,182.5,153.9,334.70000000000005,283.5,233.8,orientation,repetition,77.0,153.0,experiment_1,012,mixed,1.0,16.0,133.23133365459685,3.063181
18,45,225,315,135,37.7,349.5,216.20000000000002,82.30000000000001,60.800000000000004,253.70000000000002,296.7,19.3,orientation,repetition,37.0,60.0,experiment_1,012,mixed,1.0,17.0,52.18426739242686,1.9010485
19,135,315,45,225,304.6,147.20000000000002,24.0,93.30000000000001,159.10000000000002,203.60000000000002,332.90000000000003,290.0,orientation,repetition,304.0,159.0,experiment_1,012,mixed,1.0,18.0,131.91234871501493,2.5688667
20,45,315,225,135,47.7,114.0,268.5,352.40000000000003,274.90000000000003,54.1,104.7,319.90000000000003,orientation,repetition,47.0,274.0,experiment_1,012,mixed,1.0,19.0,279.0107095468176,3.3381555
21,135,315,225,45,16.1,327.3,133.20000000000002,185.70000000000002,117.0,348.70000000000005,30.0,211.0,colour,switch,16.0,116.0,experiment_1,012,mixed,1.0,20.0,5.0,3.9806528
22,225,45,135,315,270.0,327.8,139.4,88.7,358.90000000000003,59.300000000000004,314.5,200.5,orientation,switch,270.0,358.0,experiment_1,012,mixed,1.0,21.0,218.7718780955453,2.5100567
23,225,45,135,315,209.5,136.70000000000002,64.2,15.4,148.3,196.8,264.3,99.2,orientation,repetition,209.0,148.0,experiment_1,012,mixed,1.0,22.0,90.94695144677347,3.1457953
24,45,225,135,315,282.5,27.900000000000002,81.80000000000001,131.20000000000002,151.5,217.10000000000002,338.5,33.6,colour,switch,282.0,151.0,experiment_1,012,mixed,1.0,23.0,299.0,1.6924118
25,315,135,225,45,28.200000000000003,255.3,320.0,134.9,26.3,72.2,185.8,304.0,orientation,switch,28.0,26.0,experiment_1,012,mixed,1.0,24.0,45.6958659395088,3.048965
26,45,135,315,225,157.20000000000002,37.6,318.6,206.10000000000002,55.0,200.9,10.8,314.90000000000003,colour,switch,157.0,54.0,experiment_1,012,mixed,1.0,25.0,40.0,1.9107563
27,135,225,315,45,71.7,247.0,123.2,186.9,99.2,339.0,52.1,220.8,orientation,switch,71.0,99.0,experiment_1,012,mixed,1.0,26.0,98.47114463301483,2.906693
28,315,225,135,45,211.8,290.90000000000003,123.2,1.4000000000000001,71.10000000000001,192.3,352.5,267.40000000000003,orientation,repetition,211.0,71.0,experiment_1,012,mixed,1.0,27.0,58.64840103819508,2.5346167
29,225,135,45,315,346.1,211.20000000000002,283.1,102.7,196.20000000000002,98.4,314.20000000000005,17.900000000000002,orientation,repetition,346.0,196.0,experiment_1,012,mixed,1.0,28.0,221.05481377096243,2.9291475
30,135,225,45,315,310.3,84.80000000000001,152.4,263.40000000000003,275.8,211.9,146.8,354.90000000000003,orientation,repetition,310.0,275.0,experiment_1,012,mixed,1.0,29.0,259.5792876032055,1.9643112
31,135,315,225,45,144.20000000000002,206.70000000000002,38.1,90.9,279.40000000000003,329.5,198.3,16.900000000000002,colour,switch,144.0,279.0,experiment_1,012,mixed,1.0,30.0,219.0,1.6302521
32,135,45,225,315,243.0,353.20000000000005,311.40000000000003,55.2,61.900000000000006,288.3,239.70000000000002,342.20000000000005,orientation,switch,242.0,61.0,experiment_1,012,mixed,1.0,31.0,66.5014343240479,2.9094846
33,45,315,225,135,222.4,351.1,69.10000000000001,293.1,298.3,149.9,39.1,196.4,orientation,repetition,222.0,298.0,experiment_1,012,mixed,1.0,32.0,305.2537132341803,1.5933114
34,45,225,135,315,281.5,241.4,144.6,334.90000000000003,247.3,337.6,56.5,143.3,orientation,repetition,281.0,247.0,experiment_1,012,mixed,1.0,33.0,235.355091220148,2.193909
35,45,315,135,225,222.60000000000002,40.400000000000006,333.40000000000003,286.7,196.5,289.1,351.20000000000005,48.800000000000004,orientation,repetition,222.0,196.0,experiment_1,012,mixed,1.0,34.0,220.94898908224332,2.026517
36,45,225,315,135,65.2,143.20000000000002,272.40000000000003,328.90000000000003,186.4,80.60000000000001,128.20000000000002,286.8,orientation,repetition,65.0,186.0,experiment_1,012,mixed,1.0,35.0,193.9147255599637,2.3697417
37,225,315,45,135,207.4,75.3,128.8,306.7,278.40000000000003,185.70000000000002,356.6,225.70000000000002,orientation,repetition,207.0,278.0,experiment_1,012,mixed,1.0,36.0,235.0079798014413,1.9229351
38,315,225,45,135,275.90000000000003,225.3,1.7000000000000002,102.2,334.1,287.90000000000003,211.9,96.10000000000001,orientation,repetition,275.0,334.0,experiment_1,012,mixed,1.0,37.0,306.175215790891,2.1902294
39,45,315,225,135,68.5,117.10000000000001,198.10000000000002,338.5,148.6,247.0,35.300000000000004,192.3,orientation,repetition,68.0,148.0,experiment_1,012,mixed,1.0,38.0,120.31557812055296,2.5747705
40,225,135,315,45,229.8,341.0,52.6,113.4,174.70000000000002,322.20000000000005,279.6,75.4,orientation,repetition,229.0,174.0,experiment_1,012,mixed,1.0,39.0,183.4016906935337,1.8400227
41,225,135,45,315,111.5,162.70000000000002,62.6,351.90000000000003,353.70000000000005,292.90000000000003,98.10000000000001,47.400000000000006,orientation,repetition,111.0,353.0,experiment_1,012,mixed,1.0,40.0,347.4711922908485,2.366552
42,135,315,45,225,182.4,69.3,236.5,357.40000000000003,70.3,16.0,306.5,261.90000000000003,orientation,repetition,182.0,70.0,experiment_1,012,mixed,1.0,41.0,77.60459316624154,2.9037669
43,225,135,45,315,82.60000000000001,158.0,201.4,38.0,123.10000000000001,336.3,283.40000000000003,227.4,colour,switch,82.0,123.0,experiment_1,012,mixed,1.0,42.0,39.0,1.3956553
44,45,225,315,135,114.2,59.6,196.10000000000002,271.7,178.5,339.5,230.9,58.1,colour,repetition,114.0,178.0,experiment_1,012,mixed,1.0,43.0,78.0,1.8762479
45,315,135,225,45,68.60000000000001,289.8,17.1,133.70000000000002,247.0,182.3,36.1,135.6,colour,repetition,68.0,246.0,experiment_1,012,mixed,1.0,44.0,58.0,2.6016378
46,45,135,225,315,148.4,216.60000000000002,267.40000000000003,97.0,291.8,133.1,55.400000000000006,223.10000000000002,orientation,switch,148.0,291.0,experiment_1,012,mixed,1.0,45.0,239.93141717813754,4.249451
47,315,45,135,225,31.3,344.3,185.4,82.4,42.6,85.10000000000001,154.70000000000002,203.60000000000002,colour,switch,31.0,42.0,experiment_1,012,mixed,1.0,46.0,38.0,1.8071989
48,225,45,135,315,182.8,131.8,24.8,317.40000000000003,273.6,138.6,322.3,5.6000000000000005,orientation,switch,182.0,273.0,experiment_1,012,mixed,1.0,47.0,284.0795836862209,2.1431706
49,225,45,315,135,233.5,77.10000000000001,331.1,288.40000000000003,291.5,23.1,239.0,334.8,colour,switch,233.0,291.0,experiment_1,012,mixed,1.0,48.0,242.0,1.4256825
50,315,45,225,135,193.60000000000002,61.1,322.8,127.60000000000001,52.7,217.8,268.7,158.8,orientation,switch,193.0,52.0,experiment_1,012,mixed,1.0,49.0,97.45812759282317,1.9930098
51,315,225,45,135,151.20000000000002,82.80000000000001,301.5,231.60000000000002,56.400000000000006,280.7,209.9,154.3,orientation,repetition,151.0,56.0,experiment_1,012,mixed,1.0,50.0,80.45086607126407,1.9878536
52,315,225,135,45,166.10000000000002,32.6,252.20000000000002,317.90000000000003,233.8,140.70000000000002,8.3,192.3,orientation,repetition,166.0,233.0,experiment_1,012,mixed,1.0,51.0,287.0674048184644,2.4604692
53,135,315,45,225,304.6,124.80000000000001,261.7,206.3,92.10000000000001,238.4,330.90000000000003,146.8,colour,switch,304.0,92.0,experiment_1,012,mixed,1.0,52.0,307.0,1.5703032
54,225,135,315,45,243.4,153.5,64.8,356.20000000000005,281.3,207.9,137.70000000000002,322.3,orientation,switch,243.0,281.0,experiment_1,012,mixed,1.0,53.0,234.21892613810743,2.243553
55,135,315,45,225,216.10000000000002,287.7,15.9,101.4,167.0,333.5,26.3,266.2,colour,switch,216.0,166.0,experiment_1,012,mixed,1.0,54.0,224.0,1.7541683
56,135,225,45,315,299.2,99.60000000000001,22.900000000000002,156.3,209.8,100.2,154.10000000000002,261.2,colour,repetition,299.0,209.0,experiment_1,012,mixed,1.0,55.0,309.0,1.5800186
57,45,135,225,315,221.0,87.4,131.4,275.8,119.7,42.1,216.60000000000002,295.90000000000003,orientation,switch,220.0,119.0,experiment_1,012,mixed,1.0,56.0,62.447188423282206,2.1972725
58,315,135,45,225,228.0,77.5,26.900000000000002,151.5,244.8,25.400000000000002,77.4,198.20000000000002,colour,switch,228.0,244.0,experiment_1,012,mixed,1.0,57.0,239.0,1.7418414
59,45,315,135,225,324.8,175.5,17.0,74.2,302.7,165.5,88.10000000000001,349.70000000000005,orientation,switch,324.0,302.0,experiment_1,012,mixed,1.0,58.0,307.0025265281962,2.2484438
60,135,315,45,225,206.60000000000002,38.1,140.4,267.7,144.9,292.7,62.400000000000006,5.4,orientation,repetition,206.0,144.0,experiment_1,012,mixed,1.0,59.0,125.24937539705775,2.3423345
61,135,225,45,315,145.4,349.70000000000005,55.5,239.5,165.20000000000002,253.20000000000002,347.90000000000003,117.80000000000001,colour,switch,145.0,165.0,experiment_1,012,mixed,1.0,60.0,180.0,1.9688342
62,225,135,45,315,145.70000000000002,346.40000000000003,58.300000000000004,262.8,234.70000000000002,332.40000000000003,178.20000000000002,15.0,colour,repetition,145.0,234.0,experiment_1,012,mixed,1.0,61.0,181.0,1.5861562
63,225,315,45,135,226.5,62.1,123.2,273.5,64.5,345.70000000000005,150.20000000000002,299.40000000000003,orientation,switch,226.0,64.0,experiment_1,012,mixed,1.0,62.0,60.32996618433945,2.1706865
64,315,135,225,45,12.5,309.40000000000003,170.10000000000002,225.60000000000002,177.0,237.8,26.1,76.5,orientation,repetition,12.0,176.0,experiment_1,012,mixed,1.0,63.0,142.76025845702293,1.6919273
65,225,135,45,315,15.600000000000001,158.3,265.5,216.0,56.900000000000006,235.5,165.5,293.2,orientation,repetition,15.0,56.0,experiment_1,012,mixed,1.0,64.0,57.3277707113169,2.3605947
66,315,225,135,45,2.9000000000000004,288.2,71.0,156.4,61.7,301.90000000000003,216.60000000000002,171.20000000000002,orientation,repetition,2.0,61.0,experiment_1,012,mixed,1.0,65.0,61.89717643822457,1.8425494
67,135,315,225,45,148.8,293.40000000000003,355.40000000000003,64.8,234.8,63.0,19.5,160.5,colour,switch,148.0,234.0,experiment_1,012,mixed,1.0,66.0,170.0,1.3928936
68,315,225,135,45,320.1,36.5,133.20000000000002,89.80000000000001,164.4,209.10000000000002,15.100000000000001,101.9,colour,repetition,320.0,164.0,experiment_1,012,mixed,1.0,67.0,313.0,1.8497401
69,45,315,135,225,271.3,205.5,318.0,154.5,249.20000000000002,36.2,306.8,205.8,colour,repetition,271.0,249.0,experiment_1,012,mixed,1.0,68.0,339.0,1.7914
70,315,135,45,225,213.8,64.0,111.80000000000001,257.90000000000003,75.60000000000001,180.3,133.70000000000002,266.5,orientation,switch,213.0,75.0,experiment_1,012,mixed,1.0,69.0,104.72297506175022,1.8400259
71,315,225,45,135,175.70000000000002,104.60000000000001,346.90000000000003,39.1,26.900000000000002,309.20000000000005,191.0,264.90000000000003,colour,switch,175.0,26.0,experiment_1,012,mixed,1.0,70.0,179.0,4.1185226
72,315,135,225,45,150.4,352.0,66.10000000000001,293.0,151.1,306.0,86.10000000000001,261.3,colour,repetition,150.0,151.0,experiment_1,012,mixed,1.0,71.0,171.0,1.761726
73,315,45,135,225,177.8,245.20000000000002,358.1,122.7,120.30000000000001,263.3,351.5,201.9,colour,repetition,177.0,120.0,experiment_1,012,mixed,1.0,72.0,184.0,1.7716684
74,225,315,135,45,9.4,265.7,319.1,121.60000000000001,294.5,343.0,67.8,200.0,orientation,switch,9.0,294.0,experiment_1,012,mixed,1.0,73.0,222.62503848423862,1.6209458
75,225,45,315,135,206.8,127.10000000000001,63.900000000000006,249.9,354.20000000000005,302.6,200.5,244.60000000000002,colour,switch,206.0,354.0,experiment_1,012,mixed,1.0,74.0,211.0,3.556131
76,315,225,135,45,305.8,12.8,59.0,169.60000000000002,77.30000000000001,29.400000000000002,209.9,333.3,orientation,switch,305.0,77.0,experiment_1,012,mixed,1.0,75.0,321.1080383181826,2.3579867
77,45,135,225,315,70.5,322.6,214.10000000000002,120.4,257.8,38.2,85.30000000000001,171.3,colour,switch,70.0,257.0,experiment_1,012,mixed,1.0,76.0,26.0,1.6238447
78,135,315,45,225,102.4,280.6,224.9,40.7,341.5,246.8,189.5,45.900000000000006,colour,repetition,102.0,341.0,experiment_1,012,mixed,1.0,77.0,68.0,1.9671696
79,45,315,225,135,228.60000000000002,109.4,294.90000000000003,48.800000000000004,349.6,201.10000000000002,55.300000000000004,145.5,colour,repetition,228.0,349.0,experiment_1,012,mixed,1.0,78.0,244.0,2.5363753
80,315,135,225,45,185.9,344.20000000000005,67.5,234.20000000000002,181.10000000000002,341.5,112.7,43.5,colour,repetition,185.0,181.0,experiment_1,012,mixed,1.0,79.0,192.0,2.2509687
81,225,45,315,135,199.0,279.0,127.5,31.8,331.70000000000005,170.3,125.2,241.5,colour,repetition,198.0,331.0,experiment_1,012,mixed,1.0,80.0,198.0,1.344824
82,45,225,315,135,240.0,104.0,324.5,171.60000000000002,146.6,61.2,335.0,209.5,colour,repetition,240.0,146.0,experiment_1,012,mixed,1.0,81.0,244.0,1.6354315
83,225,135,315,45,44.300000000000004,288.5,242.0,95.80000000000001,221.20000000000002,59.2,174.8,12.9,colour,repetition,44.0,221.0,experiment_1,012,mixed,1.0,82.0,32.0,2.4580302
84,315,135,225,45,239.5,63.0,337.40000000000003,131.5,293.6,225.9,4.3,173.20000000000002,orientation,switch,239.0,293.0,experiment_1,012,mixed,1.0,83.0,312.5371833240832,2.567893
85,315,45,135,225,112.9,45.900000000000006,236.70000000000002,334.3,99.7,356.3,289.7,221.10000000000002,orientation,repetition,112.0,99.0,experiment_1,012,mixed,1.0,84.0,103.12762197359083,1.7451663
86,315,45,225,135,279.90000000000003,9.0,326.90000000000003,101.0,325.1,83.10000000000001,269.2,161.60000000000002,orientation,repetition,279.0,325.0,experiment_1,012,mixed,1.0,85.0,305.4170552764674,2.2357228
87,135,45,225,315,101.10000000000001,239.70000000000002,281.2,60.1,76.5,2.6,224.10000000000002,286.40000000000003,colour,switch,101.0,76.0,experiment_1,012,mixed,1.0,86.0,19.0,2.0744958
88,315,225,45,135,246.60000000000002,206.20000000000002,19.0,141.0,55.0,149.70000000000002,346.20000000000005,274.2,colour,repetition,246.0,54.0,experiment_1,012,mixed,1.0,87.0,239.0,1.543516
89,135,225,45,315,35.2,180.8,331.6,126.0,246.9,296.2,116.0,173.0,orientation,switch,35.0,246.0,experiment_1,012,mixed,1.0,88.0,295.026340432592,1.8261399
90,45,135,315,225,353.1,286.6,47.6,230.8,171.4,71.60000000000001,122.80000000000001,246.8,orientation,repetition,353.0,171.0,experiment_1,012,mixed,1.0,89.0,140.76263288659845,2.1054385
91,315,135,225,45,260.6,219.4,10.200000000000001,82.4,52.0,306.2,197.10000000000002,105.9,orientation,repetition,260.0,52.0,experiment_1,012,mixed,1.0,90.0,53.92640792673934,2.0932057
92,45,135,315,225,85.10000000000001,28.3,204.4,126.60000000000001,332.5,159.9,238.4,108.0,colour,switch,85.0,332.0,experiment_1,012,mixed,1.0,91.0,221.0,1.8577288
93,315,45,225,135,215.20000000000002,271.2,342.3,154.60000000000002,60.0,16.8,267.7,143.3,orientation,switch,215.0,60.0,experiment_1,012,mixed,1.0,92.0,118.41895215226042,1.8719053
94,315,225,45,135,163.70000000000002,223.0,83.60000000000001,338.90000000000003,341.8,226.0,143.6,27.400000000000002,colour,switch,163.0,341.0,experiment_1,012,mixed,1.0,93.0,190.0,1.8769256
95,225,315,135,45,9.700000000000001,218.0,71.9,157.70000000000002,66.7,329.5,207.8,150.20000000000002,colour,repetition,9.0,66.0,experiment_1,012,mixed,1.0,94.0,357.0,1.7383989
96,45,135,225,315,178.20000000000002,86.4,321.3,20.700000000000003,66.9,19.200000000000003,127.2,255.4,colour,repetition,178.0,66.0,experiment_1,012,mixed,1.0,95.0,187.0,2.4687357
97,225,45,315,135,158.60000000000002,14.3,322.8,112.2,239.20000000000002,31.1,348.40000000000003,163.70000000000002,orientation,switch,158.0,239.0,experiment_1,012,mixed,1.0,96.0,229.8861690798075,1.5859383
98,45,225,135,315,278.2,323.70000000000005,142.6,201.20000000000002,241.8,168.9,354.70000000000005,285.2,colour,switch,278.0,241.0,experiment_1,012,mixed,1.0,97.0,290.0,1.7944978
99,225,135,45,315,229.10000000000002,147.8,58.7,287.2,50.6,120.5,313.20000000000005,258.3,colour,repetition,229.0,50.0,experiment_1,012,mixed,1.0,98.0,231.0,1.5871332
100,45,225,135,315,85.5,237.20000000000002,334.8,143.6,57.2,357.6,145.20000000000002,207.4,colour,repetition,85.0,57.0,experiment_1,012,mixed,1.0,99.0,61.0,2.1237066
101,315,225,45,135,256.6,30.0,192.5,109.9,139.1,350.70000000000005,197.60000000000002,240.8,colour,repetition,256.0,139.0,experiment_1,012,mixed,1.0,100.0,218.0,1.7312374
102,315,225,45,135,56.2,271.90000000000003,335.5,191.60000000000002,332.5,156.20000000000002,281.3,35.4,colour,repetition,56.0,332.0,experiment_1,012,mixed,1.0,101.0,46.0,1.63041
103,225,45,135,315,324.20000000000005,65.9,221.0,20.5,305.90000000000003,356.8,265.90000000000003,69.8,orientation,switch,324.0,305.0,experiment_1,012,mixed,1.0,102.0,238.12290985899625,1.5977277
104,315,45,225,135,73.60000000000001,166.5,229.3,271.1,270.40000000000003,342.8,39.0,225.8,colour,switch,73.0,270.0,experiment_1,012,mixed,1.0,103.0,37.0,1.542355
105,315,135,45,225,276.1,25.400000000000002,318.5,209.60000000000002,74.8,247.70000000000002,166.70000000000002,24.700000000000003,orientation,switch,276.0,74.0,experiment_1,012,mixed,1.0,104.0,120.14836603200096,1.6888366
106,45,225,135,315,136.3,50.5,298.6,200.8,262.90000000000003,128.9,205.3,46.1,colour,switch,136.0,262.0,experiment_1,012,mixed,1.0,105.0,123.0,2.6294036
107,45,315,225,135,19.900000000000002,183.4,275.7,334.90000000000003,339.90000000000003,127.80000000000001,240.10000000000002,183.5,colour,repetition,19.0,339.0,experiment_1,012,mixed,1.0,106.0,7.0,2.2285938
108,135,225,45,315,323.90000000000003,148.3,195.0,108.30000000000001,311.5,168.3,229.20000000000002,17.900000000000002,colour,repetition,323.0,311.0,experiment_1,012,mixed,1.0,107.0,327.0,1.6678958
109,45,135,225,315,32.4,350.20000000000005,80.0,248.3,54.800000000000004,271.3,9.5,318.1,orientation,switch,32.0,54.0,experiment_1,012,mixed,1.0,108.0,39.01387878879741,1.5690659
110,315,135,45,225,227.8,158.8,330.20000000000005,23.8,84.4,40.7,241.0,338.0,colour,switch,227.0,84.0,experiment_1,012,mixed,1.0,109.0,241.0,2.0183446
111,225,315,45,135,124.60000000000001,212.5,313.0,31.900000000000002,338.0,245.0,115.9,54.5,orientation,switch,124.0,338.0,experiment_1,012,mixed,1.0,110.0,302.22248016538794,2.2735083
112,45,225,135,315,244.3,295.5,159.3,60.5,120.4,344.90000000000003,26.900000000000002,221.20000000000002,orientation,repetition,244.0,120.0,experiment_1,012,mixed,1.0,111.0,79.96309754603651,2.1750486
113,135,315,45,225,13.8,288.6,65.7,239.20000000000002,242.4,86.2,314.8,148.6,colour,switch,13.0,242.0,experiment_1,012,mixed,1.0,112.0,354.0,1.8561599
114,315,225,45,135,226.9,336.5,96.2,155.20000000000002,44.1,87.4,289.5,215.10000000000002,orientation,switch,226.0,44.0,experiment_1,012,mixed,1.0,113.0,78.5110187978408,1.5019236
115,225,135,315,45,68.5,155.0,314.70000000000005,195.10000000000002,99.9,228.60000000000002,158.60000000000002,358.3,orientation,repetition,68.0,99.0,experiment_1,012,mixed,1.0,114.0,102.4468004471465,1.7298301
116,225,135,45,315,218.3,134.8,270.6,52.2,310.8,48.400000000000006,92.9,3.0,orientation,repetition,218.0,310.0,experiment_1,012,mixed,1.0,115.0,305.888642955216,2.237183
117,135,45,315,225,208.10000000000002,121.2,277.3,320.0,354.20000000000005,61.1,184.70000000000002,295.8,colour,switch,208.0,354.0,experiment_1,012,mixed,1.0,116.0,220.0,1.6276954
118,135,315,45,225,28.200000000000003,151.5,235.10000000000002,281.2,175.4,15.200000000000001,273.6,218.20000000000002,orientation,switch,28.0,175.0,experiment_1,012,mixed,1.0,117.0,135.8466740238615,2.4188735
119,45,135,225,315,54.400000000000006,276.5,110.80000000000001,183.0,64.9,348.6,184.3,130.6,orientation,repetition,54.0,64.0,experiment_1,012,mixed,1.0,118.0,49.162435438521676,1.9221625
120,225,135,45,315,30.1,278.8,341.8,129.8,350.5,214.0,308.90000000000003,109.60000000000001,colour,switch,30.0,350.0,experiment_1,012,mixed,1.0,119.0,20.0,3.3654358
121,225,315,45,135,292.2,192.70000000000002,348.20000000000005,237.3,69.0,247.3,296.2,151.8,orientation,switch,292.0,68.0,experiment_1,012,mixed,1.0,120.0,76.07165806084632,1.7585562
122,135,45,225,315,106.5,191.8,242.20000000000002,37.7,73.3,188.10000000000002,8.9,249.10000000000002,colour,switch,106.0,73.0,experiment_1,012,mixed,1.0,121.0,15.0,1.6323735
123,315,225,135,45,69.9,118.0,349.0,196.70000000000002,33.1,117.2,231.10000000000002,272.7,colour,repetition,69.0,33.0,experiment_1,012,mixed,1.0,122.0,210.0,2.071137
124,45,225,315,135,17.6,259.7,58.0,197.4,136.70000000000002,33.0,290.1,214.60000000000002,colour,repetition,17.0,136.0,experiment_1,012,mixed,1.0,123.0,25.0,1.9082617
125,45,225,315,135,1.1,251.9,69.0,184.70000000000002,158.20000000000002,305.7,72.2,29.8,colour,repetition,1.0,158.0,experiment_1,012,mixed,1.0,124.0,15.0,1.5602088
126,45,225,315,135,125.0,308.40000000000003,194.5,53.1,216.70000000000002,69.3,168.9,285.3,orientation,switch,124.0,216.0,experiment_1,012,mixed,1.0,125.0,218.65980825409008,2.6180832
127,315,225,45,135,278.40000000000003,195.3,66.8,341.70000000000005,309.8,168.9,8.9,249.70000000000002,orientation,repetition,278.0,309.0,experiment_1,012,mixed,1.0,126.0,293.1985905136482,2.0173898
128,315,135,45,225,273.2,219.60000000000002,169.3,111.4,152.4,223.8,107.80000000000001,269.1,orientation,repetition,273.0,152.0,experiment_1,012,mixed,1.0,127.0,272.82017247244846,1.7606024
129,315,45,225,135,294.8,347.3,30.700000000000003,186.9,288.0,146.5,243.4,2.9000000000000004,orientation,repetition,294.0,288.0,experiment_1,012,mixed,1.0,128.0,283.83683900788185,2.2024944
130,45,225,135,315,118.10000000000001,281.5,194.70000000000002,21.900000000000002,140.3,238.5,13.5,55.2,colour,switch,118.0,140.0,experiment_1,012,mixed,1.0,129.0,119.0,1.8343129
131,225,135,45,315,320.70000000000005,219.5,59.1,17.5,31.0,340.5,300.1,194.9,orientation,switch,320.0,30.0,experiment_1,012,mixed,1.0,130.0,58.06155108332812,1.6169239
132,45,135,315,225,222.5,73.10000000000001,13.3,154.70000000000002,31.400000000000002,248.60000000000002,118.60000000000001,314.70000000000005,orientation,repetition,222.0,31.0,experiment_1,012,mixed,1.0,131.0,35.64329201247136,1.4401968
133,225,315,45,135,326.1,117.4,7.800000000000001,235.10000000000002,318.0,211.9,141.3,100.60000000000001,orientation,repetition,326.0,318.0,experiment_1,012,mixed,1.0,132.0,290.9928533731142,2.366881
134,45,135,315,225,167.0,96.60000000000001,315.1,245.8,244.60000000000002,136.6,186.10000000000002,327.5,colour,switch,166.0,244.0,experiment_1,012,mixed,1.0,133.0,177.0,1.8959336
135,135,45,315,225,102.2,55.2,328.90000000000003,213.70000000000002,126.80000000000001,329.90000000000003,288.90000000000003,186.9,orientation,switch,102.0,126.0,experiment_1,012,mixed,1.0,134.0,125.79273623447924,1.6605995
136,225,45,315,135,299.8,142.3,59.2,101.60000000000001,157.60000000000002,282.40000000000003,29.0,103.5,orientation,repetition,299.0,157.0,experiment_1,012,mixed,1.0,135.0,151.1987285736275,1.458417
137,45,135,315,225,37.5,318.0,189.20000000000002,238.60000000000002,194.5,152.8,5.1000000000000005,253.5,orientation,repetition,37.0,194.0,experiment_1,012,mixed,1.0,136.0,201.92958775017536,2.6804245
138,225,45,315,135,230.60000000000002,283.7,348.3,120.80000000000001,252.70000000000002,294.1,134.1,7.7,orientation,repetition,230.0,252.0,experiment_1,012,mixed,1.0,137.0,235.87624688313105,1.7416644
139,225,135,315,45,86.4,324.3,232.4,134.4,164.10000000000002,209.60000000000002,251.8,124.0,orientation,repetition,86.0,164.0,experiment_1,012,mixed,1.0,138.0,145.51820702182837,2.0321565
140,135,225,45,315,40.5,166.0,282.5,325.20000000000005,346.8,274.2,98.4,223.70000000000002,orientation,repetition,40.0,346.0,experiment_1,012,mixed,1.0,139.0,288.61569200733106,2.0867488
141,45,315,135,225,129.1,280.0,338.70000000000005,60.6,266.2,208.20000000000002,352.0,157.60000000000002,orientation,repetition,129.0,266.0,experiment_1,012,mixed,1.0,140.0,229.83440630626328,2.5712502
142,45,225,315,135,125.30000000000001,261.5,80.80000000000001,314.5,121.30000000000001,312.3,26.0,213.60000000000002,orientation,repetition,125.0,121.0,experiment_1,012,mixed,1.0,141.0,113.58165114484989,2.3564699
143,135,315,45,225,175.9,124.30000000000001,28.900000000000002,80.10000000000001,313.70000000000005,187.5,114.60000000000001,64.60000000000001,colour,switch,175.0,313.0,experiment_1,012,mixed,1.0,142.0,204.0,1.5504256
144,225,135,315,45,102.4,214.5,17.0,270.5,5.9,278.7,136.20000000000002,188.4,colour,repetition,102.0,5.0,experiment_1,012,mixed,1.0,143.0,264.0,2.2802753
145,45,135,315,225,6.9,120.30000000000001,254.5,296.40000000000003,223.8,324.0,265.8,182.9,colour,repetition,6.0,223.0,experiment_1,012,mixed,1.0,144.0,6.0,1.4696182
146,315,45,135,225,274.5,333.3,55.6,204.3,172.4,248.8,343.40000000000003,93.4,colour,repetition,274.0,172.0,experiment_1,012,mixed,1.0,145.0,274.0,1.8107992
147,315,45,135,225,114.5,14.3,163.60000000000002,299.40000000000003,117.30000000000001,157.3,14.3,72.8,orientation,switch,114.0,117.0,experiment_1,012,mixed,1.0,146.0,131.14651954639794,1.6987283
148,225,45,135,315,2.9000000000000004,265.90000000000003,110.0,212.5,226.20000000000002,281.5,21.3,173.8,colour,switch,2.0,226.0,experiment_1,012,mixed,1.0,147.0,344.0,2.03086
149,45,225,315,135,36.7,101.5,149.3,342.70000000000005,70.8,21.8,268.7,198.0,colour,repetition,36.0,70.0,experiment_1,012,mixed,1.0,148.0,20.0,1.7499555
150,45,225,135,315,187.20000000000002,52.0,93.80000000000001,343.90000000000003,234.5,170.0,91.10000000000001,15.0,colour,repetition,187.0,234.0,experiment_1,012,mixed,1.0,149.0,212.0,3.3759074
151,135,315,225,45,82.5,261.2,153.1,313.70000000000005,118.9,280.90000000000003,1.6,178.4,colour,repetition,82.0,118.0,experiment_1,012,mixed,1.0,150.0,152.0,2.4163802
152,225,45,315,135,188.5,65.9,147.5,243.8,244.10000000000002,1.3,111.10000000000001,62.300000000000004,colour,repetition,188.0,244.0,experiment_1,012,mixed,1.0,151.0,238.0,1.5116136
153,45,225,135,315,13.9,146.20000000000002,91.2,319.20000000000005,291.90000000000003,161.0,245.3,39.2,orientation,switch,13.0,291.0,experiment_1,012,mixed,1.0,152.0,307.58134993988654,2.1314795
154,45,225,135,315,20.5,80.80000000000001,135.5,287.3,41.400000000000006,208.9,92.2,309.5,orientation,repetition,20.0,41.0,experiment_1,012,mixed,1.0,153.0,52.62671788260222,1.6549028
155,135,45,315,225,40.400000000000006,122.2,295.3,196.3,309.90000000000003,99.7,44.400000000000006,243.20000000000002,orientation,repetition,40.0,309.0,experiment_1,012,mixed,1.0,154.0,299.1676133795778,1.4206299
156,225,315,45,135,320.20000000000005,72.10000000000001,21.400000000000002,231.5,13.100000000000001,201.70000000000002,298.0,87.60000000000001,orientation,repetition,320.0,13.0,experiment_1,012,mixed,1.0,155.0,59.81814725088081,2.3718936
157,45,225,135,315,133.5,72.7,189.4,14.600000000000001,10.600000000000001,146.70000000000002,201.9,322.90000000000003,orientation,repetition,133.0,10.0,experiment_1,012,mixed,1.0,156.0,37.076740716621345,1.9251059
158,135,45,315,225,259.3,351.6,158.5,96.2,355.5,149.20000000000002,44.7,207.20000000000002,orientation,repetition,259.0,355.0,experiment_1,012,mixed,1.0,157.0,320.2149282913013,2.528347
159,225,45,315,135,128.5,79.9,349.20000000000005,267.0,182.3,352.5,88.2,306.2,orientation,repetition,128.0,182.0,experiment_1,012,mixed,1.0,158.0,190.6358955760357,2.0996218
160,135,45,225,315,76.60000000000001,127.80000000000001,265.3,327.6,266.0,205.9,145.20000000000002,79.9,orientation,repetition,76.0,266.0,experiment_1,012,mixed,1.0,159.0,299.2729686629442,1.5675375
161,315,45,225,135,152.6,307.90000000000003,266.2,359.3,159.9,61.1,221.8,264.40000000000003,orientation,repetition,152.0,159.0,experiment_1,012,mixed,1.0,160.0,130.33945451741968,2.3607469
162,45,225,135,315,125.5,315.1,273.6,213.70000000000002,318.20000000000005,358.8,68.7,148.9,colour,switch,125.0,318.0,experiment_1,012,mixed,1.0,161.0,125.0,2.3546557
163,225,135,45,315,202.3,19.200000000000003,323.90000000000003,91.7,86.0,132.1,270.7,35.800000000000004,colour,repetition,202.0,86.0,experiment_1,012,mixed,1.0,162.0,212.0,2.3564887
164,45,135,315,225,253.8,192.5,148.0,95.60000000000001,154.5,289.5,205.0,79.0,colour,repetition,253.0,154.0,experiment_1,012,mixed,1.0,163.0,241.0,1.6383874
165,225,45,135,315,324.1,281.0,164.60000000000002,99.0,45.6,288.8,330.6,175.20000000000002,orientation,switch,324.0,45.0,experiment_1,012,mixed,1.0,164.0,56.07020257793936,1.7729894
166,135,45,315,225,85.9,193.4,261.5,6.0,238.3,85.5,145.1,5.4,orientation,repetition,85.0,238.0,experiment_1,012,mixed,1.0,165.0,247.4111980901268,1.7262617
167,315,45,135,225,79.7,5.7,212.5,306.1,188.8,287.1,356.8,48.5,orientation,repetition,79.0,188.0,experiment_1,012,mixed,1.0,166.0,156.33226312788858,2.5854216
168,135,315,45,225,309.3,44.900000000000006,180.70000000000002,124.0,286.3,343.3,116.7,174.9,colour,switch,309.0,286.0,experiment_1,012,mixed,1.0,167.0,305.0,1.8100747
169,45,135,315,225,139.8,239.0,5.2,188.10000000000002,12.200000000000001,310.20000000000005,54.300000000000004,259.8,orientation,switch,139.0,12.0,experiment_1,012,mixed,1.0,168.0,355.072890052351,2.1619818
170,45,135,315,225,18.7,302.40000000000003,90.4,208.8,126.5,4.800000000000001,251.60000000000002,294.2,colour,switch,18.0,126.0,experiment_1,012,mixed,1.0,169.0,18.0,1.7558112
171,45,225,315,135,196.3,246.8,31.900000000000002,306.8,97.0,22.3,232.8,181.20000000000002,orientation,switch,196.0,96.0,experiment_1,012,mixed,1.0,170.0,100.50148500865131,2.3097222
172,315,135,225,45,137.6,95.30000000000001,38.1,190.3,25.8,87.10000000000001,216.20000000000002,130.5,orientation,repetition,137.0,25.0,experiment_1,012,mixed,1.0,171.0,317.17131179091484,2.1616187
173,45,225,135,315,158.3,248.5,356.3,38.300000000000004,5.0,187.70000000000002,244.5,64.60000000000001,orientation,repetition,158.0,4.0,experiment_1,012,mixed,1.0,172.0,345.56203985785214,1.7954972
174,315,135,45,225,345.0,204.3,62.0,111.4,293.40000000000003,159.8,113.5,334.40000000000003,colour,switch,344.0,293.0,experiment_1,012,mixed,1.0,173.0,322.0,2.6600902
175,135,225,315,45,34.6,261.40000000000003,219.0,143.1,95.30000000000001,14.100000000000001,303.1,168.10000000000002,orientation,switch,34.0,95.0,experiment_1,012,mixed,1.0,174.0,28.657117456558133,2.0021267
176,135,45,315,225,317.5,10.600000000000001,156.8,224.60000000000002,284.90000000000003,225.9,15.3,133.8,colour,switch,317.0,284.0,experiment_1,012,mixed,1.0,175.0,323.0,2.2819414
177,315,45,225,135,150.3,347.3,59.0,277.6,339.90000000000003,28.3,119.5,180.3,colour,repetition,150.0,339.0,experiment_1,012,mixed,1.0,176.0,167.0,1.798482
178,135,45,225,315,166.0,343.90000000000003,274.1,53.0,253.60000000000002,156.9,347.40000000000003,210.60000000000002,orientation,switch,166.0,253.0,experiment_1,012,mixed,1.0,177.0,322.139035379577,1.694339
179,45,135,225,315,132.4,276.3,206.4,37.0,330.40000000000003,11.700000000000001,285.90000000000003,177.4,colour,switch,132.0,330.0,experiment_1,012,mixed,1.0,178.0,162.0,2.0191085
180,45,225,315,135,14.8,218.0,163.9,259.8,300.90000000000003,151.8,238.70000000000002,10.600000000000001,colour,repetition,14.0,300.0,experiment_1,012,mixed,1.0,179.0,9.0,2.5622916
181,45,315,135,225,41.6,348.6,258.3,142.5,158.3,15.3,265.90000000000003,216.3,orientation,switch,41.0,158.0,experiment_1,012,mixed,1.0,180.0,139.48743277847583,2.5160978
182,315,135,225,45,43.5,231.60000000000002,297.7,356.1,155.60000000000002,95.60000000000001,202.5,327.1,orientation,repetition,43.0,155.0,experiment_1,012,mixed,1.0,181.0,142.62419250445186,1.2333536
183,225,45,315,135,266.2,65.0,307.6,118.60000000000001,315.3,268.7,108.0,199.8,orientation,repetition,266.0,315.0,experiment_1,012,mixed,1.0,182.0,306.4377566547763,1.4378632
184,225,315,135,45,116.5,4.5,251.10000000000002,172.0,347.6,298.7,202.60000000000002,34.7,orientation,repetition,116.0,347.0,experiment_1,012,mixed,1.0,183.0,311.2880262388282,1.4525084
185,315,45,135,225,310.20000000000005,236.0,101.2,8.6,270.40000000000003,203.20000000000002,35.1,135.8,colour,switch,310.0,270.0,experiment_1,012,mixed,1.0,184.0,306.0,1.4984438
186,225,45,135,315,313.20000000000005,99.30000000000001,207.10000000000002,165.70000000000002,126.5,2.7,170.4,278.40000000000003,orientation,switch,313.0,126.0,experiment_1,012,mixed,1.0,185.0,127.41962706187638,1.9584128
187,45,135,225,315,159.5,346.1,100.80000000000001,56.300000000000004,297.5,342.3,199.5,134.9,orientation,repetition,159.0,297.0,experiment_1,012,mixed,1.0,186.0,301.2509510165807,1.9041803
188,225,45,315,135,188.10000000000002,274.6,49.2,103.5,293.6,97.4,27.700000000000003,142.70000000000002,colour,switch,188.0,293.0,experiment_1,012,mixed,1.0,187.0,192.0,1.524174
189,225,45,135,315,12.9,200.60000000000002,68.3,288.2,21.200000000000003,296.7,206.70000000000002,340.8,colour,repetition,12.0,21.0,experiment_1,012,mixed,1.0,188.0,346.0,1.5354179
190,135,225,315,45,278.2,210.3,96.2,319.40000000000003,239.8,130.9,47.1,173.3,colour,repetition,278.0,239.0,experiment_1,012,mixed,1.0,189.0,296.0,1.7298783
191,225,315,135,45,305.2,166.20000000000002,208.9,256.6,349.5,34.6,273.6,188.8,colour,repetition,305.0,349.0,experiment_1,012,mixed,1.0,190.0,291.0,1.4131001
192,315,135,45,225,159.5,9.4,100.80000000000001,302.0,60.0,0.1,244.9,184.20000000000002,colour,repetition,159.0,60.0,experiment_1,012,mixed,1.0,191.0,196.0,1.4610124
193,135,225,315,45,109.30000000000001,276.90000000000003,55.1,164.5,328.0,217.5,79.5,126.80000000000001,colour,repetition,109.0,328.0,experiment_1,012,mixed,1.0,192.0,110.0,2.0029237
194,135,225,45,315,237.8,135.70000000000002,29.900000000000002,318.90000000000003,41.0,287.0,342.40000000000003,99.80000000000001,orientation,switch,237.0,40.0,experiment_1,012,mixed,1.0,193.0,44.292680631455745,2.083165
195,315,45,135,225,81.5,257.7,350.5,299.3,199.5,147.1,315.0,88.10000000000001,colour,switch,81.0,199.0,experiment_1,012,mixed,1.0,194.0,79.0,1.8073884
196,135,225,315,45,26.700000000000003,278.6,98.5,218.60000000000002,301.1,37.5,228.9,134.4,orientation,switch,26.0,301.0,experiment_1,012,mixed,1.0,195.0,300.8973651602665,1.4313413
197,225,45,135,315,142.9,74.8,203.60000000000002,317.70000000000005,1.7000000000000002,45.7,317.20000000000005,89.0,orientation,repetition,142.0,1.0,experiment_1,012,mixed,1.0,196.0,22.01128319791936,2.6705399
198,135,45,225,315,165.4,9.5,70.60000000000001,226.60000000000002,151.0,246.8,65.60000000000001,107.10000000000001,colour,switch,165.0,150.0,experiment_1,012,mixed,1.0,197.0,183.0,2.0037873
199,135,45,315,225,121.9,298.1,7.2,64.2,339.70000000000005,247.60000000000002,196.8,26.400000000000002,orientation,switch,121.0,339.0,experiment_1,012,mixed,1.0,198.0,328.2127468783352,1.9557462
200,225,315,135,45,123.5,4.800000000000001,208.4,60.2,297.3,190.10000000000002,112.9,64.10000000000001,colour,switch,123.0,297.0,experiment_1,012,mixed,1.0,199.0,116.0,1.6376085
201,315,45,225,135,175.70000000000002,113.10000000000001,216.10000000000002,41.900000000000006,64.0,244.3,124.80000000000001,332.90000000000003,colour,repetition,175.0,64.0,experiment_1,012,mixed,1.0,200.0,159.0,1.632137
202,225,315,45,135,65.9,186.10000000000002,294.2,352.3,127.2,221.10000000000002,314.70000000000005,13.3,orientation,switch,65.0,127.0,experiment_1,012,mixed,1.0,201.0,134.23610153907,2.11069
203,135,225,315,45,72.9,261.5,308.0,126.80000000000001,243.3,78.30000000000001,167.70000000000002,24.5,orientation,repetition,72.0,243.0,experiment_1,012,mixed,1.0,202.0,247.58832020200043,1.9546171
204,135,225,315,45,119.10000000000001,199.10000000000002,322.90000000000003,75.3,201.3,105.0,252.20000000000002,56.400000000000006,colour,switch,119.0,201.0,experiment_1,012,mixed,1.0,203.0,125.0,2.7724688
205,225,135,315,45,354.70000000000005,45.2,126.9,178.20000000000002,19.0,190.10000000000002,266.40000000000003,142.3,colour,repetition,354.0,18.0,experiment_1,012,mixed,1.0,204.0,341.0,2.629765
206,315,135,45,225,40.800000000000004,308.8,264.8,124.10000000000001,109.10000000000001,322.5,182.3,2.9000000000000004,orientation,switch,40.0,109.0,experiment_1,012,mixed,1.0,205.0,125.61323262226298,1.3330003
207,135,225,45,315,22.8,278.90000000000003,106.2,322.40000000000003,26.900000000000002,271.6,340.90000000000003,212.70000000000002,orientation,repetition,22.0,26.0,experiment_1,012,mixed,1.0,206.0,43.91907581333932,1.991604
208,315,45,135,225,109.60000000000001,322.70000000000005,69.3,172.9,14.100000000000001,312.3,200.0,258.40000000000003,orientation,repetition,109.0,14.0,experiment_1,012,mixed,1.0,207.0,340.0873390731516,1.4560761
209,135,225,315,45,327.6,176.70000000000002,237.70000000000002,51.2,310.20000000000005,216.20000000000002,20.400000000000002,267.0,orientation,repetition,327.0,310.0,experiment_1,012,mixed,1.0,208.0,318.58527426874804,1.517969
210,45,225,315,135,211.0,336.8,294.7,102.30000000000001,327.20000000000005,9.5,128.1,241.3,orientation,repetition,210.0,327.0,experiment_1,012,mixed,1.0,209.0,333.7185889786798,1.449269
211,135,315,225,45,185.8,139.4,248.0,292.2,152.6,229.5,102.60000000000001,47.6,colour,switch,185.0,152.0,experiment_1,012,mixed,1.0,210.0,160.0,1.8791841
212,135,45,315,225,204.0,88.10000000000001,253.4,154.0,292.7,156.9,47.1,112.30000000000001,colour,repetition,204.0,292.0,experiment_1,012,mixed,1.0,211.0,191.0,2.5724056
213,45,135,315,225,107.9,15.4,149.9,255.3,5.1000000000000005,315.0,231.60000000000002,101.80000000000001,colour,repetition,107.0,5.0,experiment_1,012,mixed,1.0,212.0,111.0,2.365649
214,135,315,45,225,96.60000000000001,238.20000000000002,282.2,171.10000000000002,53.0,105.0,195.10000000000002,249.20000000000002,orientation,switch,96.0,52.0,experiment_1,012,mixed,1.0,213.0,41.6335393365702,1.7910329
215,45,225,135,315,74.3,317.40000000000003,271.6,219.8,32.1,282.2,76.9,223.0,orientation,repetition,74.0,32.0,experiment_1,012,mixed,1.0,214.0,50.72684725891129,1.3196471
216,225,45,315,135,157.10000000000002,226.10000000000002,44.400000000000006,294.3,79.10000000000001,329.3,265.1,124.2,colour,switch,157.0,79.0,experiment_1,012,mixed,1.0,215.0,171.0,1.5628715
217,315,225,45,135,318.3,30.0,123.9,256.6,318.70000000000005,278.6,195.10000000000002,145.70000000000002,colour,repetition,318.0,318.0,experiment_1,012,mixed,1.0,216.0,318.0,2.8333426
218,315,45,135,225,77.60000000000001,200.4,268.5,31.400000000000002,246.10000000000002,10.4,123.60000000000001,193.4,colour,repetition,77.0,246.0,experiment_1,012,mixed,1.0,217.0,88.0,2.0111513
219,315,225,135,45,47.900000000000006,290.2,247.60000000000002,111.2,139.20000000000002,290.2,81.5,17.6,colour,repetition,47.0,139.0,experiment_1,012,mixed,1.0,218.0,22.0,2.2030416
220,225,315,135,45,18.1,263.3,334.8,139.1,287.3,34.4,133.1,190.10000000000002,orientation,switch,18.0,287.0,experiment_1,012,mixed,1.0,219.0,300.1600608380871,1.6909348
221,315,45,135,225,236.0,322.40000000000003,161.5,27.400000000000002,244.5,313.8,108.4,0.30000000000000004,colour,switch,236.0,244.0,experiment_1,012,mixed,1.0,220.0,243.0,1.583633
222,315,225,135,45,38.7,263.2,346.90000000000003,98.9,249.4,2.0,120.9,310.70000000000005,orientation,switch,38.0,249.0,experiment_1,012,mixed,1.0,221.0,228.89167629408075,1.6480587
223,315,225,135,45,219.0,349.90000000000003,38.6,277.0,332.90000000000003,119.10000000000001,70.9,13.9,orientation,repetition,218.0,332.0,experiment_1,012,mixed,1.0,222.0,302.0288939903146,1.486682
224,315,225,45,135,28.5,101.9,189.10000000000002,286.1,305.90000000000003,5.1000000000000005,227.20000000000002,184.0,orientation,repetition,28.0,305.0,experiment_1,012,mixed,1.0,223.0,289.7988763545249,1.4112504
225,135,315,225,45,262.8,192.0,97.9,328.5,81.7,145.0,207.8,305.2,colour,switch,262.0,81.0,experiment_1,012,mixed,1.0,224.0,309.0,1.7793511
226,45,315,225,135,53.2,120.80000000000001,245.9,5.1000000000000005,296.7,341.70000000000005,163.70000000000002,88.4,orientation,switch,53.0,296.0,experiment_1,012,mixed,1.0,225.0,275.2863373619688,1.6924196
227,315,135,225,45,209.10000000000002,38.7,156.70000000000002,114.7,353.70000000000005,74.4,229.9,280.7,colour,switch,209.0,353.0,experiment_1,012,mixed,1.0,226.0,221.0,1.840946
228,225,315,135,45,297.7,352.70000000000005,77.4,35.800000000000004,228.20000000000002,327.90000000000003,283.5,22.700000000000003,orientation,switch,297.0,228.0,experiment_1,012,mixed,1.0,227.0,239.3110412626064,1.6395084
229,135,225,315,45,135.8,318.5,243.3,197.4,265.1,2.5,57.7,189.60000000000002,colour,switch,135.0,265.0,experiment_1,012,mixed,1.0,228.0,181.0,4.0781417
230,135,45,315,225,76.9,166.20000000000002,291.1,5.7,324.0,230.20000000000002,144.9,73.4,colour,repetition,76.0,324.0,experiment_1,012,mixed,1.0,229.0,89.0,1.8992535
231,315,45,135,225,288.40000000000003,228.5,95.30000000000001,51.800000000000004,335.90000000000003,74.2,239.60000000000002,142.4,orientation,switch,288.0,335.0,experiment_1,012,mixed,1.0,230.0,304.46081627137175,1.855215
232,225,135,315,45,56.6,124.60000000000001,10.100000000000001,327.0,245.3,27.700000000000003,170.0,86.30000000000001,orientation,repetition,56.0,245.0,experiment_1,012,mixed,1.0,231.0,234.85132734280805,1.2051921
233,315,225,45,135,204.0,280.3,18.400000000000002,129.9,221.4,292.7,102.9,156.70000000000002,colour,switch,204.0,221.0,experiment_1,012,mixed,1.0,232.0,211.0,3.1170204
234,135,225,315,45,220.3,116.7,261.6,1.9000000000000001,110.80000000000001,192.4,256.3,55.7,orientation,switch,220.0,110.0,experiment_1,012,mixed,1.0,233.0,56.72511201516508,2.0402546
235,135,45,225,315,298.0,157.60000000000002,253.60000000000002,345.8,56.400000000000006,302.3,259.8,171.10000000000002,orientation,repetition,298.0,56.0,experiment_1,012,mixed,1.0,234.0,49.953257477842065,2.4627993
236,135,225,45,315,56.800000000000004,102.7,351.1,147.20000000000002,258.40000000000003,67.5,214.20000000000002,329.3,orientation,repetition,56.0,258.0,experiment_1,012,mixed,1.0,235.0,277.4581275928232,2.7247603
237,135,45,225,315,183.3,50.400000000000006,0.6000000000000001,122.9,187.9,273.90000000000003,139.8,50.2,orientation,repetition,183.0,187.0,experiment_1,012,mixed,1.0,236.0,196.38954033403476,2.271912
238,225,135,315,45,22.400000000000002,321.1,160.9,65.2,242.0,86.30000000000001,345.8,282.7,colour,switch,22.0,242.0,experiment_1,012,mixed,1.0,237.0,357.0,2.085356
239,225,315,135,45,312.90000000000003,140.9,96.2,230.5,208.20000000000002,136.0,303.40000000000003,82.5,orientation,switch,312.0,208.0,experiment_1,012,mixed,1.0,238.0,224.09061955080085,1.5297205
240,45,225,135,315,134.20000000000002,283.40000000000003,194.10000000000002,24.900000000000002,198.4,27.5,73.4,270.0,orientation,repetition,134.0,198.0,experiment_1,012,mixed,1.0,239.0,199.69202123873652,2.8769622
241,315,225,135,45,42.800000000000004,268.2,330.8,117.9,171.4,237.9,81.10000000000001,14.100000000000001,orientation,repetition,42.0,171.0,experiment_1,012,mixed,1.0,240.0,142.50473245061198,2.0821538
242,135,315,225,45,328.6,9.200000000000001,277.3,187.3,292.6,250.0,342.20000000000005,26.900000000000002,orientation,repetition,328.0,292.0,experiment_1,012,mixed,1.0,241.0,289.5858253010954,1.6228106
243,135,315,225,45,339.70000000000005,277.2,214.10000000000002,50.0,129.1,327.0,215.10000000000002,77.0,orientation,repetition,339.0,129.0,experiment_1,012,mixed,1.0,242.0,109.29004621918874,2.1819527
244,225,135,45,315,62.6,189.3,253.10000000000002,128.6,75.9,258.8,303.5,119.10000000000001,orientation,repetition,62.0,75.0,experiment_1,012,mixed,1.0,243.0,116.77115021446211,2.5184844
245,225,45,315,135,319.5,159.70000000000002,58.6,105.10000000000001,94.10000000000001,307.1,220.70000000000002,176.8,colour,switch,319.0,94.0,experiment_1,012,mixed,1.0,244.0,318.0,1.6259319
246,45,225,135,315,89.4,200.10000000000002,19.5,147.70000000000002,163.10000000000002,95.5,306.90000000000003,347.40000000000003,orientation,switch,89.0,163.0,experiment_1,012,mixed,1.0,245.0,143.9726266148964,2.2810178
247,45,225,315,135,178.0,327.20000000000005,100.4,266.40000000000003,257.2,23.700000000000003,183.8,102.5,orientation,repetition,178.0,257.0,experiment_1,012,mixed,1.0,246.0,247.11936282358232,2.6542451
248,45,315,225,135,133.1,324.90000000000003,77.30000000000001,27.1,196.60000000000002,20.6,82.80000000000001,142.0,orientation,repetition,133.0,196.0,experiment_1,012,mixed,1.0,247.0,210.57922687248902,4.21214
249,225,315,135,45,31.5,225.60000000000002,175.8,130.9,157.20000000000002,261.2,345.5,213.20000000000002,orientation,repetition,31.0,157.0,experiment_1,012,mixed,1.0,248.0,126.1041430303367,1.5640235
250,225,135,45,315,59.900000000000006,124.0,176.4,294.1,350.70000000000005,254.3,165.70000000000002,82.0,colour,switch,59.0,350.0,experiment_1,012,mixed,1.0,249.0,306.0,2.1658876
251,225,315,135,45,325.1,258.0,113.30000000000001,11.100000000000001,336.1,277.40000000000003,92.5,31.6,colour,repetition,325.0,336.0,experiment_1,012,mixed,1.0,250.0,327.0,2.271548
252,45,225,135,315,230.9,294.3,91.5,145.3,251.70000000000002,333.20000000000005,186.4,40.300000000000004,orientation,switch,230.0,251.0,experiment_1,012,mixed,1.0,251.0,237.23150092123018,2.6685083
253,135,225,45,315,51.2,291.3,243.3,92.60000000000001,25.8,74.4,129.4,334.20000000000005,orientation,repetition,51.0,25.0,experiment_1,012,mixed,1.0,252.0,34.562524648881826,2.0257452
254,315,225,135,45,324.5,12.8,179.8,54.400000000000006,43.0,321.5,138.0,267.3,colour,switch,324.0,42.0,experiment_1,012,mixed,1.0,253.0,196.0,2.1211793
255,135,315,225,45,46.6,282.40000000000003,223.3,148.20000000000002,41.0,352.0,143.5,306.90000000000003,orientation,switch,46.0,40.0,experiment_1,012,mixed,1.0,254.0,45.2893701634406,2.1322446
256,135,315,225,45,20.400000000000002,167.20000000000002,237.0,64.10000000000001,350.3,281.90000000000003,34.800000000000004,200.5,orientation,repetition,20.0,350.0,experiment_1,012,mixed,1.0,255.0,313.5185428291129,1.5107712
257,225,135,315,45,349.0,56.900000000000006,288.90000000000003,123.9,79.0,301.8,245.20000000000002,162.10000000000002,orientation,repetition,348.0,78.0,experiment_1,012,mixed,1.0,256.0,53.27905118545981,1.522659
258,45,315,135,225,165.70000000000002,325.8,18.2,115.30000000000001,62.6,157.10000000000002,235.60000000000002,303.5,orientation,repetition,165.0,62.0,experiment_1,012,mixed,1.0,257.0,49.723111789790266,1.3579082
259,225,135,315,45,33.0,118.80000000000001,267.0,349.70000000000005,338.6,219.0,134.3,42.2,orientation,repetition,32.0,338.0,experiment_1,012,mixed,1.0,258.0,320.59273539700246,1.4238257
260,225,45,135,315,33.300000000000004,167.0,94.80000000000001,277.2,313.40000000000003,171.8,250.9,2.9000000000000004,colour,switch,33.0,313.0,experiment_1,012,mixed,1.0,259.0,351.0,2.0471942
261,135,45,315,225,30.0,131.20000000000002,240.10000000000002,319.20000000000005,165.10000000000002,38.2,263.5,219.10000000000002,colour,repetition,30.0,165.0,experiment_1,012,mixed,1.0,260.0,352.0,2.7017443
262,135,45,225,315,152.70000000000002,350.40000000000003,96.4,302.2,149.1,257.40000000000003,101.80000000000001,326.0,colour,repetition,152.0,149.0,experiment_1,012,mixed,1.0,261.0,167.0,2.2336495
263,45,225,135,315,299.40000000000003,180.70000000000002,90.60000000000001,9.200000000000001,236.3,123.10000000000001,284.0,42.300000000000004,orientation,switch,299.0,236.0,experiment_1,012,mixed,1.0,262.0,234.31708606912622,2.6240811
264,45,315,225,135,233.5,340.5,192.8,95.9,92.60000000000001,16.7,134.4,176.20000000000002,orientation,repetition,233.0,92.0,experiment_1,012,mixed,1.0,263.0,92.0750263614174,2.1512737
265,315,135,45,225,59.1,195.0,309.5,104.0,221.5,31.8,141.3,100.10000000000001,orientation,repetition,59.0,221.0,experiment_1,012,mixed,1.0,264.0,136.1381770074882,2.3134027
266,315,45,225,135,314.0,216.0,156.8,67.4,91.10000000000001,49.5,132.6,219.60000000000002,colour,switch,314.0,91.0,experiment_1,012,mixed,1.0,265.0,152.0,2.2691085
267,135,225,315,45,131.8,59.1,324.6,249.5,167.5,94.0,221.3,352.70000000000005,orientation,switch,131.0,167.0,experiment_1,012,mixed,1.0,266.0,98.42696902148067,2.530326
268,135,315,45,225,216.8,141.8,299.2,45.5,115.0,45.5,202.3,257.90000000000003,colour,switch,216.0,114.0,experiment_1,012,mixed,1.0,267.0,224.0,1.7335441
269,225,45,135,315,283.2,43.900000000000006,185.4,98.30000000000001,259.1,43.2,211.60000000000002,138.70000000000002,colour,repetition,283.0,259.0,experiment_1,012,mixed,1.0,268.0,298.0,2.0961301
270,135,225,45,315,315.6,134.3,266.1,83.10000000000001,91.60000000000001,357.6,311.6,219.60000000000002,colour,repetition,315.0,91.0,experiment_1,012,mixed,1.0,269.0,311.0,1.4848765
271,45,135,225,315,218.8,141.0,85.9,298.90000000000003,210.10000000000002,159.10000000000002,337.3,79.5,colour,repetition,218.0,210.0,experiment_1,012,mixed,1.0,270.0,222.0,1.9534531
272,135,225,315,45,195.70000000000002,89.80000000000001,348.90000000000003,244.9,323.0,53.800000000000004,220.20000000000002,126.4,colour,repetition,195.0,322.0,experiment_1,012,mixed,1.0,271.0,190.0,2.0112147
273,45,315,135,225,94.80000000000001,161.0,10.0,301.5,266.8,161.9,338.3,103.4,orientation,switch,94.0,266.0,experiment_1,012,mixed,1.0,272.0,282.8968091376687,1.4752694
274,225,315,45,135,265.8,345.90000000000003,109.2,54.1,357.40000000000003,296.0,115.0,230.8,orientation,repetition,265.0,357.0,experiment_1,012,mixed,1.0,273.0,27.979474388480146,2.480476
275,315,135,45,225,169.9,71.4,211.4,257.1,345.5,78.30000000000001,292.6,135.70000000000002,orientation,repetition,169.0,345.0,experiment_1,012,mixed,1.0,274.0,304.8642502744554,1.6855608
276,45,225,315,135,293.90000000000003,17.0,63.1,202.3,47.800000000000004,257.5,2.3000000000000003,158.10000000000002,orientation,repetition,293.0,47.0,experiment_1,012,mixed,1.0,275.0,46.52979072428636,1.5063257
277,135,315,225,45,33.800000000000004,238.3,339.90000000000003,80.80000000000001,194.8,107.7,40.6,324.90000000000003,orientation,repetition,33.0,194.0,experiment_1,012,mixed,1.0,276.0,157.16634582208246,3.0941093
278,135,225,315,45,189.0,147.70000000000002,229.9,306.5,151.4,97.0,220.5,328.20000000000005,colour,switch,188.0,151.0,experiment_1,012,mixed,1.0,277.0,205.0,2.7545357
279,225,315,45,135,231.3,277.40000000000003,84.0,321.1,38.300000000000004,99.2,168.3,230.70000000000002,colour,repetition,231.0,38.0,experiment_1,012,mixed,1.0,278.0,225.0,1.8124616
280,225,45,315,135,288.90000000000003,128.5,170.5,55.7,116.7,292.2,244.9,66.5,colour,repetition,288.0,116.0,experiment_1,012,mixed,1.0,279.0,288.0,2.212643
281,225,135,45,315,115.0,34.5,204.70000000000002,343.3,242.4,293.1,148.3,53.5,colour,repetition,114.0,242.0,experiment_1,012,mixed,1.0,280.0,122.0,2.020273
282,135,225,45,315,192.3,18.7,307.0,117.80000000000001,321.40000000000003,261.7,127.0,179.10000000000002,colour,repetition,192.0,321.0,experiment_1,012,mixed,1.0,281.0,214.0,1.835539
283,45,225,135,315,6.7,195.8,70.10000000000001,271.90000000000003,214.9,27.200000000000003,284.1,123.7,colour,repetition,6.0,214.0,experiment_1,012,mixed,1.0,282.0,337.0,1.7061995
284,225,315,135,45,123.5,20.900000000000002,242.0,293.6,32.0,188.0,238.10000000000002,336.6,orientation,switch,123.0,32.0,experiment_1,012,mixed,1.0,283.0,42.87890360333855,2.2139604
285,45,225,315,135,7.6000000000000005,304.5,84.7,249.70000000000002,358.0,267.7,47.1,152.6,colour,switch,7.0,358.0,experiment_1,012,mixed,1.0,284.0,49.0,2.8698747
286,225,315,135,45,211.70000000000002,155.3,71.3,322.70000000000005,153.0,89.7,203.8,19.3,colour,repetition,211.0,152.0,experiment_1,012,mixed,1.0,285.0,219.0,1.9871794
287,135,45,225,315,152.70000000000002,18.1,306.90000000000003,206.9,252.20000000000002,358.0,102.7,314.20000000000005,colour,repetition,152.0,252.0,experiment_1,012,mixed,1.0,286.0,172.0,1.8597146
288,315,225,135,45,285.3,74.60000000000001,221.9,149.20000000000002,9.1,59.5,255.10000000000002,322.8,orientation,switch,285.0,9.0,experiment_1,012,mixed,1.0,287.0,50.037368502031484,1.9938397
289,45,135,225,315,118.30000000000001,238.10000000000002,38.800000000000004,351.20000000000005,54.800000000000004,158.0,99.7,231.10000000000002,colour,switch,118.0,54.0,experiment_1,012,mixed,1.0,288.0,123.0,1.9301653
290,45,315,135,225,195.60000000000002,34.0,145.5,332.1,31.3,216.5,135.5,293.8,orientation,switch,195.0,31.0,experiment_1,012,mixed,1.0,289.0,43.89525963284957,1.6293344
291,45,135,225,315,104.80000000000001,235.5,309.6,59.300000000000004,104.7,59.0,280.1,179.20000000000002,orientation,repetition,104.0,104.0,experiment_1,012,mixed,1.0,290.0,74.32890854799055,1.444813
292,45,225,135,315,146.70000000000002,204.70000000000002,299.6,57.400000000000006,137.20000000000002,283.0,94.9,22.0,orientation,repetition,146.0,137.0,experiment_1,012,mixed,1.0,291.0,116.23513670710372,2.2111962
293,315,135,225,45,135.5,219.70000000000002,333.90000000000003,281.8,261.8,140.1,14.4,189.10000000000002,orientation,repetition,135.0,261.0,experiment_1,012,mixed,1.0,292.0,254.29136217098426,2.8193107
294,45,315,135,225,300.5,60.400000000000006,15.0,245.5,179.60000000000002,243.60000000000002,318.1,20.0,colour,switch,300.0,179.0,experiment_1,012,mixed,1.0,293.0,286.0,1.7865711
295,45,225,315,135,141.20000000000002,95.7,27.0,314.1,337.90000000000003,229.0,83.80000000000001,269.6,orientation,switch,141.0,337.0,experiment_1,012,mixed,1.0,294.0,320.9162694112632,1.9950572
296,315,225,45,135,17.8,252.20000000000002,151.70000000000002,196.20000000000002,26.8,304.3,100.7,261.6,colour,switch,17.0,26.0,experiment_1,012,mixed,1.0,295.0,351.0,2.0516424
297,135,315,225,45,58.5,355.8,213.10000000000002,138.5,63.0,154.4,327.40000000000003,273.6,colour,repetition,58.0,62.0,experiment_1,012,mixed,1.0,296.0,71.0,1.633419
298,45,315,135,225,180.70000000000002,55.300000000000004,120.7,319.5,118.10000000000001,300.5,174.4,0.9,colour,repetition,180.0,118.0,experiment_1,012,mixed,1.0,297.0,206.0,1.7361308
299,45,315,135,225,95.0,282.5,344.70000000000005,26.900000000000002,164.3,84.60000000000001,334.90000000000003,245.10000000000002,colour,repetition,94.0,164.0,experiment_1,012,mixed,1.0,298.0,73.0,2.0904982
300,45,315,225,135,309.40000000000003,138.20000000000002,61.2,353.5,288.8,154.3,16.6,109.80000000000001,colour,repetition,309.0,288.0,experiment_1,012,mixed,1.0,299.0,300.0,1.7830858
301,135,45,225,315,122.4,348.0,30.3,75.7,158.5,0.7000000000000001,208.3,263.0,colour,repetition,122.0,158.0,experiment_1,012,mixed,1.0,300.0,142.0,3.4330776
302,135,225,45,315,7.1000000000000005,306.40000000000003,199.8,143.9,113.7,302.7,182.5,355.70000000000005,orientation,switch,7.0,113.0,experiment_1,012,mixed,1.0,301.0,135.0,1.7836924
303,45,315,225,135,55.6,346.8,249.10000000000002,174.20000000000002,234.9,95.80000000000001,54.0,177.4,orientation,repetition,55.0,234.0,experiment_1,012,mixed,1.0,302.0,224.7383772543052,2.0962064
304,315,135,45,225,26.400000000000002,320.5,260.40000000000003,152.8,188.60000000000002,101.80000000000001,319.20000000000005,250.9,colour,switch,26.0,188.0,experiment_1,012,mixed,1.0,303.0,173.0,2.1888423
305,315,135,225,45,44.900000000000006,146.6,335.5,220.60000000000002,234.5,160.9,349.1,112.80000000000001,orientation,switch,44.0,234.0,experiment_1,012,mixed,1.0,304.0,223.4601617113764,2.2934022
306,135,45,225,315,242.5,291.8,190.60000000000002,97.80000000000001,186.10000000000002,139.1,11.5,277.40000000000003,colour,switch,242.0,186.0,experiment_1,012,mixed,1.0,305.0,245.0,2.1859615
307,225,135,315,45,226.9,165.8,352.90000000000003,307.8,229.20000000000002,288.2,331.90000000000003,53.6,colour,repetition,226.0,229.0,experiment_1,012,mixed,1.0,306.0,217.0,1.930519
308,45,225,135,315,344.40000000000003,248.5,52.900000000000006,168.4,83.60000000000001,192.10000000000002,10.100000000000001,136.5,orientation,switch,344.0,83.0,experiment_1,012,mixed,1.0,307.0,51.40291288069518,1.565906
309,225,45,135,315,225.0,271.7,63.6,9.200000000000001,196.9,330.5,50.800000000000004,274.0,orientation,repetition,224.0,196.0,experiment_1,012,mixed,1.0,308.0,205.3847979647542,1.9431096
310,135,315,45,225,37.300000000000004,231.5,310.1,170.20000000000002,203.8,150.5,266.3,353.20000000000005,orientation,repetition,37.0,203.0,experiment_1,012,mixed,1.0,309.0,163.42599224309103,3.2095668
311,135,225,315,45,198.8,112.2,43.900000000000006,352.70000000000005,333.5,216.0,116.2,270.2,colour,switch,198.0,333.0,experiment_1,012,mixed,1.0,310.0,209.0,2.12141
312,315,135,45,225,90.2,258.3,322.40000000000003,148.0,185.8,240.3,349.20000000000005,59.2,orientation,switch,90.0,185.0,experiment_1,012,mixed,1.0,311.0,154.93630899935263,2.044652
313,135,225,315,45,55.7,211.70000000000002,270.1,123.10000000000001,89.80000000000001,16.900000000000002,216.3,276.0,colour,switch,55.0,89.0,experiment_1,012,mixed,1.0,312.0,90.0,3.5392308
314,135,45,315,225,105.60000000000001,296.90000000000003,192.70000000000002,355.20000000000005,244.60000000000002,62.900000000000006,348.20000000000005,104.10000000000001,colour,repetition,105.0,244.0,experiment_1,012,mixed,1.0,313.0,97.0,1.7897452
315,315,225,135,45,228.8,294.0,161.8,46.300000000000004,198.5,333.8,45.400000000000006,287.5,colour,repetition,228.0,198.0,experiment_1,012,mixed,1.0,314.0,233.0,1.8465825
316,225,315,135,45,46.300000000000004,186.4,353.6,254.4,243.70000000000002,125.2,76.0,188.60000000000002,colour,repetition,46.0,243.0,experiment_1,012,mixed,1.0,315.0,59.0,2.2370498
317,225,135,315,45,25.3,111.0,276.40000000000003,190.3,34.1,330.6,284.90000000000003,183.5,colour,repetition,25.0,34.0,experiment_1,012,mixed,1.0,316.0,32.0,1.7395242
318,45,135,315,225,93.80000000000001,191.70000000000002,28.0,309.8,221.10000000000002,327.40000000000003,158.70000000000002,63.300000000000004,colour,repetition,93.0,221.0,experiment_1,012,mixed,1.0,317.0,94.0,1.6780814
319,45,225,315,135,235.3,27.0,171.4,303.7,323.1,210.10000000000002,145.8,57.300000000000004,orientation,switch,235.0,323.0,experiment_1,012,mixed,1.0,318.0,318.2154839917482,1.6992941
320,225,45,315,135,336.40000000000003,228.0,31.5,134.1,227.3,355.40000000000003,173.3,61.5,colour,switch,336.0,227.0,experiment_1,012,mixed,1.0,319.0,347.0,1.8712575
321,135,315,45,225,306.90000000000003,352.20000000000005,182.70000000000002,238.10000000000002,118.9,217.0,40.5,324.6,orientation,switch,306.0,118.0,experiment_1,012,mixed,1.0,320.0,134.24615166692922,2.220423
322,225,45,135,315,182.8,81.7,309.40000000000003,224.9,28.200000000000003,91.60000000000001,342.8,143.1,colour,switch,182.0,28.0,experiment_1,012,mixed,1.0,321.0,203.0,1.5317023
323,135,45,315,225,352.8,233.60000000000002,85.0,304.3,245.8,347.8,164.70000000000002,302.2,orientation,switch,352.0,245.0,experiment_1,012,mixed,1.0,322.0,299.6801159369835,1.4628745
324,135,225,315,45,119.80000000000001,8.6,228.4,280.0,264.3,221.70000000000002,319.40000000000003,142.70000000000002,colour,switch,119.0,264.0,experiment_1,012,mixed,1.0,323.0,113.0,1.7167898
325,135,45,315,225,349.5,30.900000000000002,149.0,215.60000000000002,300.1,65.8,247.4,150.6,orientation,switch,349.0,300.0,experiment_1,012,mixed,1.0,324.0,293.2574157286187,1.5120469
326,135,315,45,225,345.20000000000005,296.3,56.2,229.70000000000002,166.9,33.0,221.3,316.3,orientation,repetition,345.0,166.0,experiment_1,012,mixed,1.0,325.0,128.2731159509987,1.5479399
327,45,225,315,135,53.900000000000006,221.10000000000002,283.7,166.5,292.8,175.9,63.300000000000004,232.20000000000002,orientation,repetition,53.0,292.0,experiment_1,012,mixed,1.0,326.0,301.0694032092334,1.4307147
328,45,225,315,135,40.400000000000006,257.2,152.8,357.20000000000005,142.9,226.9,285.5,25.400000000000002,colour,switch,40.0,142.0,experiment_1,012,mixed,1.0,327.0,36.0,1.6539115
329,225,135,45,315,339.1,111.2,201.60000000000002,285.90000000000003,107.4,325.5,279.2,8.1,colour,repetition,339.0,107.0,experiment_1,012,mixed,1.0,328.0,9.0,1.9238216
330,315,135,45,225,121.5,58.5,304.0,162.20000000000002,353.3,238.9,33.7,280.90000000000003,colour,repetition,121.0,353.0,experiment_1,012,mixed,1.0,329.0,117.0,1.5589294
331,45,315,135,225,169.70000000000002,112.60000000000001,319.3,13.8,4.6000000000000005,145.9,320.6,52.6,orientation,switch,169.0,4.0,experiment_1,012,mixed,1.0,330.0,32.14190982700182,1.799506
332,45,315,225,135,38.300000000000004,92.2,163.9,274.1,114.4,73.8,300.90000000000003,186.5,orientation,repetition,38.0,114.0,experiment_1,012,mixed,1.0,331.0,128.60104337263107,1.8408003
333,135,45,315,225,333.1,69.8,249.4,121.30000000000001,334.0,112.30000000000001,70.9,253.5,colour,switch,333.0,334.0,experiment_1,012,mixed,1.0,332.0,326.0,1.5194405
334,225,315,135,45,100.80000000000001,349.3,298.0,198.9,10.200000000000001,233.9,116.60000000000001,159.9,orientation,switch,100.0,10.0,experiment_1,012,mixed,1.0,333.0,27.02158159117704,1.5066129
335,45,135,315,225,89.2,319.8,45.2,179.70000000000002,285.7,73.2,154.5,329.40000000000003,orientation,repetition,89.0,285.0,experiment_1,012,mixed,1.0,334.0,277.8152935467669,2.142435
336,315,135,225,45,85.10000000000001,141.20000000000002,329.90000000000003,238.10000000000002,131.9,281.3,25.700000000000003,189.60000000000002,orientation,repetition,85.0,131.0,experiment_1,012,mixed,1.0,335.0,118.63352559850057,1.6331499
337,135,225,315,45,89.80000000000001,135.0,287.1,37.1,65.60000000000001,233.0,285.0,118.80000000000001,colour,switch,89.0,65.0,experiment_1,012,mixed,1.0,336.0,355.0,1.7038556
338,225,315,135,45,278.2,323.6,200.0,130.5,164.10000000000002,348.8,208.3,52.7,orientation,switch,278.0,164.0,experiment_1,012,mixed,1.0,337.0,149.03624346792648,1.6996322
339,315,225,135,45,223.5,95.5,334.40000000000003,278.40000000000003,350.3,102.30000000000001,175.0,271.5,orientation,repetition,223.0,350.0,experiment_1,012,mixed,1.0,338.0,295.92490150755447,1.9674695
340,45,225,315,135,82.30000000000001,343.5,285.0,122.60000000000001,45.7,142.5,259.8,338.1,orientation,repetition,82.0,45.0,experiment_1,012,mixed,1.0,339.0,51.61952973615101,1.7848052
341,45,135,315,225,284.8,58.800000000000004,120.5,197.9,6.9,206.60000000000002,267.8,141.1,colour,switch,284.0,6.0,experiment_1,012,mixed,1.0,340.0,282.0,1.8813094
342,45,225,135,315,71.4,335.6,219.60000000000002,27.900000000000002,253.5,175.0,357.0,307.3,colour,repetition,71.0,253.0,experiment_1,012,mixed,1.0,341.0,71.0,1.5824785
343,45,225,135,315,61.0,331.20000000000005,196.8,13.3,61.800000000000004,329.0,169.9,251.60000000000002,orientation,switch,60.0,61.0,experiment_1,012,mixed,1.0,342.0,56.85674727739524,1.255057
344,45,315,135,225,192.3,305.5,66.10000000000001,235.10000000000002,53.1,293.1,231.4,5.4,colour,switch,192.0,53.0,experiment_1,012,mixed,1.0,343.0,203.0,1.8691112
345,315,225,135,45,317.20000000000005,41.400000000000006,149.1,276.7,97.30000000000001,160.0,256.40000000000003,327.20000000000005,orientation,switch,317.0,97.0,experiment_1,012,mixed,1.0,344.0,113.93764258432601,1.914226
346,315,135,45,225,211.60000000000002,110.7,169.5,327.70000000000005,26.8,344.3,280.6,124.10000000000001,orientation,repetition,211.0,26.0,experiment_1,012,mixed,1.0,345.0,51.29812436762974,1.7182444
347,315,135,45,225,108.7,314.1,61.300000000000004,260.6,158.10000000000002,79.0,209.60000000000002,335.20000000000005,colour,switch,108.0,158.0,experiment_1,012,mixed,1.0,346.0,129.0,1.5533298
348,315,45,225,135,106.7,190.8,61.7,345.5,143.5,27.900000000000002,333.40000000000003,288.40000000000003,orientation,switch,106.0,143.0,experiment_1,012,mixed,1.0,347.0,125.14212107395555,1.5552659
349,135,315,225,45,241.10000000000002,154.70000000000002,297.6,349.20000000000005,311.70000000000005,102.10000000000001,12.4,244.9,orientation,repetition,241.0,311.0,experiment_1,012,mixed,1.0,348.0,314.085783239551,1.5572067
350,315,45,135,225,30.700000000000003,101.60000000000001,226.0,335.90000000000003,265.1,338.90000000000003,58.0,185.0,orientation,repetition,30.0,265.0,experiment_1,012,mixed,1.0,349.0,256.13897243697886,2.2470644
351,225,315,135,45,182.8,282.0,333.8,19.6,113.30000000000001,63.1,7.300000000000001,163.3,orientation,repetition,182.0,113.0,experiment_1,012,mixed,1.0,350.0,62.10272896905237,1.4816219
352,225,135,45,315,237.3,332.70000000000005,53.1,172.70000000000002,320.6,141.6,98.7,270.0,colour,switch,237.0,320.0,experiment_1,012,mixed,1.0,351.0,246.0,1.8788497
353,45,225,135,315,37.300000000000004,126.7,78.7,226.3,207.0,348.8,133.70000000000002,271.6,colour,repetition,37.0,206.0,experiment_1,012,mixed,1.0,352.0,7.0,1.6762995
354,45,315,135,225,124.10000000000001,167.5,248.60000000000002,75.3,13.700000000000001,285.1,150.0,213.10000000000002,orientation,switch,124.0,13.0,experiment_1,012,mixed,1.0,353.0,38.1698135334568,1.7854408
355,315,45,225,135,326.3,106.4,243.10000000000002,182.4,255.5,212.20000000000002,139.70000000000002,11.9,colour,switch,326.0,255.0,experiment_1,012,mixed,1.0,354.0,310.0,2.3780901
356,315,45,135,225,185.70000000000002,354.8,64.4,283.0,338.40000000000003,112.2,41.0,183.5,orientation,switch,185.0,338.0,experiment_1,012,mixed,1.0,355.0,315.0,1.5072348
357,315,135,45,225,289.2,40.400000000000006,134.70000000000002,207.8,143.8,249.20000000000002,82.9,37.9,orientation,repetition,289.0,143.0,experiment_1,012,mixed,1.0,356.0,129.12069950552456,1.5672412
358,315,45,135,225,251.70000000000002,165.3,114.4,207.10000000000002,282.5,51.1,351.90000000000003,100.7,colour,switch,251.0,282.0,experiment_1,012,mixed,1.0,357.0,242.0,1.8723124
359,45,225,315,135,120.10000000000001,309.1,200.3,54.6,18.5,92.5,274.2,316.20000000000005,orientation,switch,120.0,18.0,experiment_1,012,mixed,1.0,358.0,39.559667968994496,1.4057183
360,135,315,45,225,285.40000000000003,109.4,230.8,53.6,324.5,235.20000000000002,10.8,168.3,colour,switch,285.0,324.0,experiment_1,012,mixed,1.0,359.0,321.0,2.2376318
361,135,315,45,225,251.4,132.8,307.3,37.0,263.1,216.4,322.40000000000003,45.7,orientation,switch,251.0,263.0,experiment_1,012,mixed,1.0,360.0,280.45163294398867,2.3080125
362,315,135,45,225,252.9,85.0,345.8,128.20000000000002,3.2,135.70000000000002,84.60000000000001,202.4,orientation,repetition,252.0,3.0,experiment_1,012,mixed,1.0,361.0,334.1632457759984,1.8718832
363,315,45,225,135,168.9,358.20000000000005,103.0,294.0,214.3,164.5,81.4,330.90000000000003,orientation,repetition,168.0,214.0,experiment_1,012,mixed,1.0,362.0,209.49495581768767,1.3812585
364,135,225,315,45,31.6,143.0,87.9,259.0,345.40000000000003,107.60000000000001,182.4,59.0,colour,switch,31.0,345.0,experiment_1,012,mixed,1.0,363.0,344.0,2.046416
365,45,135,315,225,258.5,189.9,102.7,348.8,151.4,307.3,255.9,50.1,colour,repetition,258.0,151.0,experiment_1,012,mixed,1.0,364.0,260.0,2.2529986
366,45,225,135,315,4.2,55.400000000000006,126.10000000000001,271.40000000000003,137.5,266.0,319.5,49.1,colour,repetition,4.0,137.0,experiment_1,012,mixed,1.0,365.0,352.0,2.315082
367,45,225,135,315,72.4,277.90000000000003,6.6000000000000005,231.8,139.1,334.5,230.10000000000002,31.700000000000003,colour,repetition,72.0,139.0,experiment_1,012,mixed,1.0,366.0,65.0,1.6380714
368,315,45,225,135,121.60000000000001,50.1,168.70000000000002,263.3,133.1,267.7,332.20000000000005,83.4,orientation,switch,121.0,133.0,experiment_1,012,mixed,1.0,367.0,115.93742298546016,1.9008145
369,315,135,45,225,149.3,323.6,85.4,219.8,156.8,14.4,266.7,219.0,orientation,repetition,149.0,156.0,experiment_1,012,mixed,1.0,368.0,117.80145877993414,1.5045865
370,45,315,135,225,73.10000000000001,168.0,352.5,270.6,150.3,77.2,266.0,353.8,orientation,repetition,73.0,150.0,experiment_1,012,mixed,1.0,369.0,136.28939790406028,1.9485023
371,315,225,135,45,147.0,334.90000000000003,47.5,250.4,196.70000000000002,333.1,146.20000000000002,39.5,orientation,repetition,146.0,196.0,experiment_1,012,mixed,1.0,370.0,226.6424397019373,1.5584376
372,225,135,315,45,257.2,135.0,48.800000000000004,335.8,159.4,113.30000000000001,257.2,1.0,colour,switch,257.0,159.0,experiment_1,012,mixed,1.0,371.0,84.0,2.1762674
373,225,45,315,135,43.5,281.3,336.1,131.4,157.10000000000002,110.30000000000001,332.6,61.7,orientation,switch,43.0,157.0,experiment_1,012,mixed,1.0,372.0,158.7763434972338,2.1455767
374,45,225,315,135,125.9,303.5,19.200000000000003,179.9,210.60000000000002,343.20000000000005,115.5,45.900000000000006,orientation,repetition,125.0,210.0,experiment_1,012,mixed,1.0,373.0,206.22702690114045,2.7000923
375,45,315,135,225,171.5,91.5,225.9,11.600000000000001,53.1,218.4,300.5,353.40000000000003,colour,switch,171.0,53.0,experiment_1,012,mixed,1.0,374.0,202.0,1.5599775
376,315,135,45,225,37.2,169.60000000000002,88.7,273.90000000000003,301.8,111.0,11.200000000000001,181.70000000000002,colour,repetition,37.0,301.0,experiment_1,012,mixed,1.0,375.0,207.0,1.977888
377,225,135,45,315,55.1,291.1,245.3,155.10000000000002,50.300000000000004,314.0,141.6,235.3,orientation,switch,55.0,50.0,experiment_1,012,mixed,1.0,376.0,48.456619172042,2.2751977
378,45,315,225,135,258.40000000000003,193.5,80.4,350.8,140.0,207.8,359.3,40.1,colour,switch,258.0,140.0,experiment_1,012,mixed,1.0,377.0,256.0,1.5843399
379,45,135,315,225,30.400000000000002,106.9,191.10000000000002,279.2,50.6,318.70000000000005,165.0,252.20000000000002,colour,repetition,30.0,50.0,experiment_1,012,mixed,1.0,378.0,64.0,1.7368857
380,315,135,225,45,89.4,355.1,200.5,256.0,229.5,313.40000000000003,133.20000000000002,72.0,colour,repetition,89.0,229.0,experiment_1,012,mixed,1.0,379.0,91.0,1.6754915
381,315,225,45,135,138.6,28.5,71.5,266.7,263.5,105.4,354.3,207.9,orientation,switch,138.0,263.0,experiment_1,012,mixed,1.0,380.0,259.169920456593,1.7527705
382,135,225,45,315,210.70000000000002,168.3,113.30000000000001,289.90000000000003,282.0,80.9,124.60000000000001,229.60000000000002,colour,switch,210.0,282.0,experiment_1,012,mixed,1.0,381.0,219.0,1.6506333
383,45,225,135,315,102.2,15.8,287.6,190.5,158.0,1.6,105.80000000000001,207.3,colour,repetition,102.0,158.0,experiment_1,012,mixed,1.0,382.0,93.0,1.4005784
384,225,45,315,135,40.400000000000006,166.8,123.4,259.5,334.8,202.60000000000002,98.60000000000001,266.1,orientation,switch,40.0,334.0,experiment_1,012,mixed,1.0,383.0,314.8664436462941,2.3445556
385,135,315,225,45,7.9,184.10000000000002,110.80000000000001,260.5,268.1,76.60000000000001,30.0,216.8,colour,switch,7.0,268.0,experiment_1,012,mixed,1.0,384.0,13.0,1.8510267
386,45,135,315,225,277.90000000000003,82.4,149.9,216.0,323.90000000000003,18.900000000000002,92.4,227.4,colour,repetition,277.0,323.0,experiment_1,012,mixed,1.0,385.0,277.0,1.8011003
387,225,45,315,135,235.9,155.3,311.6,47.900000000000006,137.8,52.400000000000006,351.0,255.10000000000002,orientation,switch,235.0,137.0,experiment_1,012,mixed,1.0,386.0,123.90627698844216,1.7527636
388,315,45,135,225,194.70000000000002,301.8,44.300000000000004,257.3,14.5,105.30000000000001,207.20000000000002,257.3,orientation,repetition,194.0,14.0,experiment_1,012,mixed,1.0,387.0,288.5490836909029,2.1949604
389,225,315,135,45,275.90000000000003,65.3,338.1,151.5,34.0,101.10000000000001,203.3,250.70000000000002,orientation,repetition,275.0,34.0,experiment_1,012,mixed,1.0,388.0,46.52076966114377,2.3473482
390,135,45,225,315,318.90000000000003,115.7,43.300000000000004,256.5,198.10000000000002,128.1,252.0,78.30000000000001,colour,switch,318.0,198.0,experiment_1,012,mixed,1.0,389.0,323.0,1.8540406
391,225,135,45,315,201.4,152.4,318.90000000000003,271.6,47.900000000000006,329.40000000000003,286.6,115.10000000000001,orientation,switch,201.0,47.0,experiment_1,012,mixed,1.0,390.0,47.802451519866786,2.17972
392,45,225,135,315,180.5,298.8,86.80000000000001,252.0,292.2,168.9,242.70000000000002,85.60000000000001,colour,switch,180.0,292.0,experiment_1,012,mixed,1.0,391.0,215.0,2.7410204
393,315,45,135,225,154.70000000000002,215.10000000000002,67.8,276.2,285.3,81.0,123.30000000000001,352.40000000000003,colour,repetition,154.0,285.0,experiment_1,012,mixed,1.0,392.0,219.0,2.6876023
394,315,135,45,225,72.9,253.5,5.1000000000000005,138.1,62.800000000000004,349.1,148.70000000000002,255.70000000000002,colour,repetition,72.0,62.0,experiment_1,012,mixed,1.0,393.0,230.0,2.7720163
395,315,135,225,45,142.20000000000002,66.60000000000001,338.0,279.90000000000003,8.4,134.4,310.40000000000003,221.9,colour,repetition,142.0,8.0,experiment_1,012,mixed,1.0,394.0,157.0,1.7252841
396,315,45,135,225,318.5,70.9,136.3,252.3,233.70000000000002,107.0,180.9,313.3,orientation,switch,318.0,233.0,experiment_1,012,mixed,1.0,395.0,233.03165609448374,2.1927128
397,45,135,315,225,12.4,320.5,255.0,155.8,38.2,266.1,333.90000000000003,223.9,orientation,repetition,12.0,38.0,experiment_1,012,mixed,1.0,396.0,46.99787985647668,1.9292797
398,45,135,225,315,240.3,99.0,19.5,163.20000000000002,305.7,170.5,27.6,87.10000000000001,colour,switch,240.0,305.0,experiment_1,012,mixed,1.0,397.0,246.0,1.8122956
399,315,135,225,45,171.20000000000002,234.60000000000002,67.2,347.6,44.400000000000006,313.90000000000003,243.20000000000002,159.60000000000002,colour,repetition,171.0,44.0,experiment_1,012,mixed,1.0,398.0,189.0,3.5562284
400,45,225,135,315,321.90000000000003,216.5,76.80000000000001,20.900000000000002,112.60000000000001,164.3,295.90000000000003,37.6,orientation,switch,321.0,112.0,experiment_1,012,mixed,1.0,399.0,128.29016319224309,2.846156
